{"datasetJSONCreationDateTime":"2024-01-15T10:30:00","datasetJSONVersion":"1.1.0","itemGroupOID":"IG.ADSL","name":"ADSL","label":"Subject-Level Analysis Dataset","records":60,"columns":[{"itemOID":"IT.ADSL.STUDYID","name":"STUDYID","label":"Study Identifier","dataType":"string","length":12},{"itemOID":"IT.ADSL.USUBJID","name":"USUBJID","label":"Unique Subject Identifier","dataType":"string","length":11},{"itemOID":"IT.ADSL.SUBJID","name":"SUBJID","label":"Subject Identifier for the Study","dataType":"string","length":4},{"itemOID":"IT.ADSL.SITEID","name":"SITEID","label":"Study Site Identifier","dataType":"string","length":3},{"itemOID":"IT.ADSL.SITEGR1","name":"SITEGR1","label":"Pooled Site Group 1","dataType":"string","length":3},{"itemOID":"IT.ADSL.ARM","name":"ARM","label":"Description of Planned Arm","dataType":"string","length":20},{"itemOID":"IT.ADSL.TRT01P","name":"TRT01P","label":"Planned Treatment for Period 01","dataType":"string","length":20},{"itemOID":"IT.ADSL.TRT01PN","name":"TRT01PN","label":"Planned Treatment for Period 01 (N)","dataType":"float","length":8},{"itemOID":"IT.ADSL.TRT01A","name":"TRT01A","label":"Actual Treatment for Period 01","dataType":"string","length":20},{"itemOID":"IT.ADSL.TRT01AN","name":"TRT01AN","label":"Actual Treatment for Period 01 (N)","dataType":"float","length":8},{"itemOID":"IT.ADSL.TRTSDT","name":"TRTSDT","label":"Date of First Exposure to Treatment","dataType":"date","length":8},{"itemOID":"IT.ADSL.TRTEDT","name":"TRTEDT","label":"Date of Last Exposure to Treatment","dataType":"date","length":8},{"itemOID":"IT.ADSL.TRTDUR","name":"TRTDUR","label":"Duration of Treatment (days)","dataType":"float","length":8},{"itemOID":"IT.ADSL.AVGDD","name":"AVGDD","label":"Avg Daily Dose (as planned)","dataType":"float","length":8},{"itemOID":"IT.ADSL.CUMDOSE","name":"CUMDOSE","label":"Cumulative Dose (as planned)","dataType":"float","length":8},{"itemOID":"IT.ADSL.AGE","name":"AGE","label":"Age","dataType":"float","length":8},{"itemOID":"IT.ADSL.AGEGR1","name":"AGEGR1","label":"Pooled Age Group 1","dataType":"string","length":5},{"itemOID":"IT.ADSL.AGEGR1N","name":"AGEGR1N","label":"Pooled Age Group 1 (N)","dataType":"float","length":8},{"itemOID":"IT.ADSL.AGEU","name":"AGEU","label":"Age Units","dataType":"string","length":5},{"itemOID":"IT.ADSL.RACE","name":"RACE","label":"Race","dataType":"string","length":32},{"itemOID":"IT.ADSL.RACEN","name":"RACEN","label":"Race (N)","dataType":"float","length":8},{"itemOID":"IT.ADSL.SEX","name":"SEX","label":"Sex","dataType":"string","length":1,"codelist":"C66731"},{"itemOID":"IT.ADSL.ETHNIC","name":"ETHNIC","label":"Ethnicity","dataType":"string","length":22},{"itemOID":"IT.ADSL.SAFFL","name":"SAFFL","label":"Safety Population Flag","dataType":"string","length":1},{"itemOID":"IT.ADSL.ITTFL","name":"ITTFL","label":"Intent-To-Treat Population Flag","dataType":"string","length":1},{"itemOID":"IT.ADSL.EFFFL","name":"EFFFL","label":"Efficacy Population Flag","dataType":"string","length":1},{"itemOID":"IT.ADSL.COMP8FL","name":"COMP8FL","label":"Completers of Week 8 Population Flag","dataType":"string","length":1},{"itemOID":"IT.ADSL.COMP16FL","name":"COMP16FL","label":"Completers of Week 16 Population Flag","dataType":"string","length":1},{"itemOID":"IT.ADSL.COMP24FL","name":"COMP24FL","label":"Completers of Week 24 Population Flag","dataType":"string","length":1},{"itemOID":"IT.ADSL.DISCONFL","name":"DISCONFL","label":"Did the Subject Discontinue the Study?","dataType":"string","length":1},{"itemOID":"IT.ADSL.DSRAEFL","name":"DSRAEFL","label":"Discontinued due to AE?","dataType":"string","length":1},{"itemOID":"IT.ADSL.DTHFL","name":"DTHFL","label":"Subject Died?","dataType":"string","length":1},{"itemOID":"IT.ADSL.BMIBL","name":"BMIBL","label":"Baseline BMI (kg/m^2)","dataType":"float","length":8},{"itemOID":"IT.ADSL.BMIBLGR1","name":"BMIBLGR1","label":"Pooled Baseline BMI Group 1","dataType":"string","length":6},{"itemOID":"IT.ADSL.HEIGHTBL","name":"HEIGHTBL","label":"Baseline Height (cm)","dataType":"float","length":8},{"itemOID":"IT.ADSL.WEIGHTBL","name":"WEIGHTBL","label":"Baseline Weight (kg)","dataType":"float","length":8},{"itemOID":"IT.ADSL.EDUCLVL","name":"EDUCLVL","label":"Years of Education","dataType":"float","length":8},{"itemOID":"IT.ADSL.DISONSDT","name":"DISONSDT","label":"Date of Onset of Disease","dataType":"date","length":8},{"itemOID":"IT.ADSL.DURDIS","name":"DURDIS","label":"Duration of Disease (Months)","dataType":"float","length":8},{"itemOID":"IT.ADSL.DURDSGR1","name":"DURDSGR1","label":"Pooled Disease Duration Group 1","dataType":"string","length":4},{"itemOID":"IT.ADSL.VISIT1DT","name":"VISIT1DT","label":"Date of Visit 1","dataType":"date","length":8},{"itemOID":"IT.ADSL.RFSTDTC","name":"RFSTDTC","label":"Subject Reference Start Date/Time","dataType":"string","length":10},{"itemOID":"IT.ADSL.RFENDTC","name":"RFENDTC","label":"Subject Reference End Date/Time","dataType":"string","length":10},{"itemOID":"IT.ADSL.VISNUMEN","name":"VISNUMEN","label":"End of Trt Visit (Vis 12 or Early Term.)","dataType":"float","length":8},{"itemOID":"IT.ADSL.RFENDT","name":"RFENDT","label":"Date of Discontinuation/Completion","dataType":"date","length":8},{"itemOID":"IT.ADSL.DCDECOD","name":"DCDECOD","label":"Standardized Disposition Term","dataType":"string","length":27},{"itemOID":"IT.ADSL.DCREASCD","name":"DCREASCD","label":"Reason for Discontinuation","dataType":"string","length":18},{"itemOID":"IT.ADSL.MMSETOT","name":"MMSETOT","label":"MMSE Total","dataType":"float","length":8}],"rows":[["CDISCPILOT01","01-701-1015","1015","701","701","Placebo","Placebo",0,"Placebo",0,"2014-01-02","2014-07-02",182,0,0,63,"<65",1,"YEARS","WHITE",1,"F","HISPANIC OR LATINO","Y","Y","Y","Y","Y","Y",null,null,null,25.100000000000001,"25-<30",147.30000000000001,54.399999999999999,16,"2010-04-30",43.899999999999999,">=12","2013-12-26","2014-01-02","2014-07-02",12,"2014-07-02","COMPLETED","Completed",23],["CDISCPILOT01","01-701-1023","1023","701","701","Placebo","Placebo",0,"Placebo",0,"2012-08-05","2012-09-01",28,0,0,64,"<65",1,"YEARS","WHITE",1,"M","HISPANIC OR LATINO","Y","Y","Y","N","N","N","Y","Y",null,30.399999999999999,">=30",162.59999999999999,80.299999999999997,14,"2006-03-11",76.400000000000006,">=12","2012-07-22","2012-08-05","2012-09-02",5,"2012-09-02","ADVERSE EVENT","Adverse Event",23],["CDISCPILOT01","01-701-1028","1028","701","701","Xanomeline High Dose","Xanomeline High Dose",81,"Xanomeline High Dose",81,"2013-07-19","2014-01-14",180,77.700000000000003,13986,71,"65-80",2,"YEARS","WHITE",1,"M","NOT HISPANIC OR LATINO","Y","Y","Y","Y","Y","Y",null,null,null,31.399999999999999,">=30",177.80000000000001,99.299999999999997,16,"2009-12-16",42.799999999999997,">=12","2013-07-11","2013-07-19","2014-01-14",12,"2014-01-14","COMPLETED","Completed",23],["CDISCPILOT01","01-701-1033","1033","701","701","Xanomeline Low Dose","Xanomeline Low Dose",54,"Xanomeline Low Dose",54,"2014-03-18","2014-03-31",14,54,756,74,"65-80",2,"YEARS","WHITE",1,"M","NOT HISPANIC OR LATINO","Y","Y","Y","N","N","N","Y",null,null,28.800000000000001,"25-<30",175.30000000000001,88.5,12,"2009-08-02",55.299999999999997,">=12","2014-03-10","2014-03-18","2014-04-14",5,"2014-04-14","STUDY TERMINATED BY SPONSOR","Sponsor Decision",23],["CDISCPILOT01","01-701-1034","1034","701","701","Xanomeline High Dose","Xanomeline High Dose",81,"Xanomeline High Dose",81,"2014-07-01","2014-12-30",183,76.900000000000006,14067,77,"65-80",2,"YEARS","WHITE",1,"F","NOT HISPANIC OR LATINO","Y","Y","Y","Y","Y","Y",null,null,null,26.100000000000001,"25-<30",154.90000000000001,62.600000000000001,9,"2011-09-29",32.899999999999999,">=12","2014-06-24","2014-07-01","2014-12-30",12,"2014-12-30","COMPLETED","Completed",21],["CDISCPILOT01","01-701-1047","1047","701","701","Placebo","Placebo",0,"Placebo",0,"2013-02-12","2013-03-09",26,0,0,85,">80",3,"YEARS","WHITE",1,"F","NOT HISPANIC OR LATINO","Y","Y","Y","N","N","N","Y","Y",null,30.399999999999999,">=30",148.59999999999999,67.099999999999994,8,"2009-07-26",42,">=12","2013-01-22","2013-02-12","2013-03-29",6,"2013-03-29","ADVERSE EVENT","Adverse Event",23],["CDISCPILOT01","01-701-1097","1097","701","701","Xanomeline Low Dose","Xanomeline Low Dose",54,"Xanomeline Low Dose",54,"2014-01-01","2014-07-09",190,54,10260,68,"65-80",2,"YEARS","WHITE",1,"M","NOT HISPANIC OR LATINO","Y","Y","Y","Y","Y","Y",null,null,null,27.300000000000001,"25-<30",168.90000000000001,78,18,"2005-09-22",99.099999999999994,">=12","2013-12-23","2014-01-01","2014-07-09",12,"2014-07-09","COMPLETED","Completed",10],["CDISCPILOT01","01-701-1111","1111","701","701","Xanomeline Low Dose","Xanomeline Low Dose",54,"Xanomeline Low Dose",54,"2012-09-07","2012-09-16",10,54,540,81,">80",3,"YEARS","WHITE",1,"F","NOT HISPANIC OR LATINO","Y","Y","Y","N","N","N","Y","Y",null,23.899999999999999,"<25",158.19999999999999,59.899999999999999,22,"2009-04-04",40.700000000000003,">=12","2012-08-25","2012-09-07","2012-09-17",4,"2012-09-17","ADVERSE EVENT","Adverse Event",23],["CDISCPILOT01","01-701-1115","1115","701","701","Xanomeline Low Dose","Xanomeline Low Dose",54,"Xanomeline Low Dose",54,"2012-11-30","2013-01-23",55,54,2970,84,">80",3,"YEARS","WHITE",1,"M","NOT HISPANIC OR LATINO","Y","Y","Y","Y","N","N","Y","Y",null,23.899999999999999,"<25",181.59999999999999,78.900000000000006,12,"2004-05-28",101.90000000000001,">=12","2012-11-23","2012-11-30","2013-01-23",8,"2013-01-23","ADVERSE EVENT","Adverse Event",20],["CDISCPILOT01","01-701-1118","1118","701","701","Placebo","Placebo",0,"Placebo",0,"2014-03-12","2014-09-09",182,0,0,52,"<65",1,"YEARS","WHITE",1,"M","NOT HISPANIC OR LATINO","Y","Y","Y","Y","Y","Y",null,null,null,21.899999999999999,"<25",180.30000000000001,71.200000000000003,14,"2010-06-24",44.200000000000003,">=12","2014-02-27","2014-03-12","2014-09-09",12,"2014-09-09","COMPLETED","Completed",20],["CDISCPILOT01","01-701-1130","1130","701","701","Placebo","Placebo",0,"Placebo",0,"2014-02-15","2014-08-16",183,0,0,84,">80",3,"YEARS","WHITE",1,"M","NOT HISPANIC OR LATINO","Y","Y","Y","Y","Y","Y",null,null,null,27.600000000000001,"25-<30",169.69999999999999,79.400000000000006,12,"2010-05-22",44.700000000000003,">=12","2014-02-09","2014-02-15","2014-08-16",12,"2014-08-16","COMPLETED","Completed",19],["CDISCPILOT01","01-701-1133","1133","701","701","Xanomeline High Dose","Xanomeline High Dose",81,"Xanomeline High Dose",81,"2012-10-28","2013-04-28",183,77.200000000000003,14121,81,">80",3,"YEARS","WHITE",1,"F","NOT HISPANIC OR LATINO","Y","Y","Y","Y","Y","Y",null,null,null,28.100000000000001,"25-<30",162.59999999999999,74.400000000000006,10,"2010-03-11",31.5,">=12","2012-10-23","2012-10-28","2013-04-29",12,"2013-04-29","COMPLETED","Completed",21],["CDISCPILOT01","01-701-1146","1146","701","701","Xanomeline High Dose","Xanomeline High Dose",81,"Xanomeline High Dose",81,"2013-05-20","2013-06-26",38,70.299999999999997,2673,75,"65-80",2,"YEARS","WHITE",1,"F","NOT HISPANIC OR LATINO","Y","Y","Y","N","N","N","Y","Y",null,24.899999999999999,"<25",147.30000000000001,54,16,"2009-11-17",41.700000000000003,">=12","2013-05-07","2013-05-20","2013-06-30",7,"2013-06-30","ADVERSE EVENT","Adverse Event",22],["CDISCPILOT01","01-701-1148","1148","701","701","Xanomeline High Dose","Xanomeline High Dose",81,"Xanomeline High Dose",81,"2013-08-23","2014-02-20",182,77.099999999999994,14040,57,"<65",1,"YEARS","WHITE",1,"M","NOT HISPANIC OR LATINO","Y","Y","Y","Y","Y","Y",null,null,null,28.300000000000001,"25-<30",175.30000000000001,87.099999999999994,15,"2010-12-12",32.100000000000001,">=12","2013-08-14","2013-08-23","2014-02-20",12,"2014-02-20","COMPLETED","Completed",21],["CDISCPILOT01","01-701-1153","1153","701","701","Placebo","Placebo",0,"Placebo",0,"2013-09-23","2014-03-16",175,0,0,79,"65-80",2,"YEARS","WHITE",1,"F","NOT HISPANIC OR LATINO","Y","Y","Y","Y","Y","Y",null,null,null,23.800000000000001,"<25",156.19999999999999,58.100000000000001,6,"2005-05-13",99.799999999999997,">=12","2013-09-06","2013-09-23","2014-04-01",12,"2014-04-01","COMPLETED","Completed",10],["CDISCPILOT01","01-701-1180","1180","701","701","Xanomeline High Dose","Xanomeline High Dose",81,"Xanomeline High Dose",81,"2013-02-12","2013-03-18",35,70.200000000000003,2457,56,"<65",1,"YEARS","WHITE",1,"M","NOT HISPANIC OR LATINO","Y","Y","Y","N","N","N","Y","Y",null,27.600000000000001,"25-<30",180.30000000000001,89.799999999999997,16,"2008-09-21",52.299999999999997,">=12","2013-01-28","2013-02-12","2013-03-23",7,"2013-03-23","ADVERSE EVENT","Adverse Event",19],["CDISCPILOT01","01-701-1181","1181","701","701","Xanomeline High Dose","Xanomeline High Dose",81,"Xanomeline High Dose",81,"2013-12-05","2013-12-09",5,54,270,79,"65-80",2,"YEARS","WHITE",1,"F","NOT HISPANIC OR LATINO","Y","Y","Y","N","N","N","Y","Y",null,27.800000000000001,"25-<30",154.90000000000001,66.700000000000003,15,"2008-08-26",63,">=12","2013-11-26","2013-12-05","2013-12-12",4,"2013-12-12","ADVERSE EVENT","Adverse Event",10],["CDISCPILOT01","01-701-1188","1188","701","701","Xanomeline Low Dose","Xanomeline Low Dose",54,"Xanomeline Low Dose",54,"2013-02-15","2013-03-24",38,54,2052,71,"65-80",2,"YEARS","WHITE",1,"M","NOT HISPANIC OR LATINO","Y","Y","Y","N","N","N","Y","Y",null,32,">=30",177.80000000000001,101.2,16,"2005-09-14",88.700000000000003,">=12","2013-02-03","2013-02-15","2013-03-25",7,"2013-03-25","ADVERSE EVENT","Adverse Event",23],["CDISCPILOT01","01-701-1192","1192","701","701","Xanomeline Low Dose","Xanomeline Low Dose",54,"Xanomeline Low Dose",54,"2012-07-22","2013-01-20",183,54,9882,80,"65-80",2,"YEARS","WHITE",1,"F","NOT HISPANIC OR LATINO","Y","Y","Y","Y","Y","Y",null,null,null,27.800000000000001,"25-<30",151.09999999999999,63.5,12,"2009-03-15",39.799999999999997,">=12","2012-07-08","2012-07-22","2013-01-20",12,"2013-01-20","COMPLETED","Completed",23],["CDISCPILOT01","01-701-1203","1203","701","701","Placebo","Placebo",0,"Placebo",0,"2013-02-02","2013-08-03",183,0,0,81,">80",3,"YEARS","BLACK OR AFRICAN AMERICAN",2,"F","NOT HISPANIC OR LATINO","Y","Y","Y","Y","Y","Y",null,null,null,25.899999999999999,"25-<30",160,66.200000000000003,13,"2011-04-19",21.300000000000001,">=12","2013-01-25","2013-02-02","2013-08-03",12,"2013-08-03","COMPLETED","Completed",21],["CDISCPILOT01","01-701-1211","1211","701","701","Xanomeline Low Dose","Xanomeline Low Dose",54,"Xanomeline Low Dose",54,"2012-11-15","2013-01-12",59,54,3186,76,"65-80",2,"YEARS","WHITE",1,"F","NOT HISPANIC OR LATINO","Y","Y","Y","Y","N","N","Y",null,"Y",17.699999999999999,"<25",160,45.399999999999999,12,"2010-03-19",31.399999999999999,">=12","2012-10-30","2012-11-15","2013-01-14",9,"2013-01-14","DEATH","Death",12],["CDISCPILOT01","01-701-1234","1234","701","701","Placebo","Placebo",0,"Placebo",0,"2013-03-30","2013-09-22",177,0,0,69,"65-80",2,"YEARS","WHITE",1,"M","NOT HISPANIC OR LATINO","Y","Y","Y","Y","Y","Y",null,null,null,23.399999999999999,"<25",181.59999999999999,77.099999999999994,18,"2006-08-11",79.299999999999997,">=12","2013-03-20","2013-03-30","2013-09-22",12,"2013-09-22","COMPLETED","Completed",20],["CDISCPILOT01","01-701-1239","1239","701","701","Xanomeline High Dose","Xanomeline High Dose",81,"Xanomeline High Dose",81,"2014-01-11","2014-07-10",181,76.799999999999997,13905,56,"<65",1,"YEARS","WHITE",1,"M","HISPANIC OR LATINO","Y","Y","Y","Y","Y","Y",null,null,null,33.600000000000001,">=30",168.90000000000001,95.900000000000006,11,"2003-09-23",123.2,">=12","2013-12-28","2014-01-11","2014-07-11",12,"2014-07-11","COMPLETED","Completed",23],["CDISCPILOT01","01-701-1275","1275","701","701","Xanomeline High Dose","Xanomeline High Dose",81,"Xanomeline High Dose",81,"2014-02-07","2014-05-31",114,77.200000000000003,8802,61,"<65",1,"YEARS","AMERICAN INDIAN OR ALASKA NATIVE",6,"M","NOT HISPANIC OR LATINO","Y","Y","Y","Y","Y","N","Y",null,null,24.600000000000001,"<25",167.59999999999999,69,12,"2011-09-17",28.300000000000001,">=12","2014-01-25","2014-02-07","2014-06-14",10,"2014-06-14","WITHDRAWAL BY SUBJECT","Withdrew Consent",22],["CDISCPILOT01","01-701-1287","1287","701","701","Xanomeline High Dose","Xanomeline High Dose",81,"Xanomeline High Dose",81,"2014-01-25","2014-07-26",183,76.299999999999997,13959,56,"<65",1,"YEARS","WHITE",1,"F","HISPANIC OR LATINO","Y","Y","Y","Y","Y","Y",null,null,null,23.5,"<25",154.90000000000001,56.299999999999997,14,"2009-10-30",50.600000000000001,">=12","2014-01-17","2014-01-25","2014-07-26",12,"2014-07-26","COMPLETED","Completed",22],["CDISCPILOT01","01-701-1294","1294","701","701","Xanomeline Low Dose","Xanomeline Low Dose",54,"Xanomeline Low Dose",54,"2013-03-24","2013-06-14",83,54,4482,67,"65-80",2,"YEARS","WHITE",1,"M","NOT HISPANIC OR LATINO","Y","Y","Y","Y","N","N","Y","Y",null,27.100000000000001,"25-<30",170.19999999999999,78.5,16,"2011-09-09",18.300000000000001,">=12","2013-03-17","2013-03-24","2013-06-14",9,"2013-06-14","ADVERSE EVENT","Adverse Event",23],["CDISCPILOT01","01-701-1302","1302","701","701","Xanomeline High Dose","Xanomeline High Dose",81,"Xanomeline High Dose",81,"2013-08-29","2013-11-05",69,74,5103,61,"<65",1,"YEARS","WHITE",1,"M","NOT HISPANIC OR LATINO","Y","Y","Y","Y","N","N","Y","Y",null,26,"25-<30",177.80000000000001,82.099999999999994,15,"2007-02-09",78.400000000000006,">=12","2013-08-20","2013-08-29","2013-11-05",9,"2013-11-05","ADVERSE EVENT","Adverse Event",23],["CDISCPILOT01","01-701-1317","1317","701","701","Xanomeline Low Dose","Xanomeline Low Dose",54,"Xanomeline Low Dose",54,"2014-05-22","2014-11-20",183,54,9882,68,"65-80",2,"YEARS","WHITE",1,"M","NOT HISPANIC OR LATINO","Y","Y","Y","Y","Y","Y",null,null,null,21.399999999999999,"<25",176.5,66.700000000000003,20,"2013-09-16",7.7999999999999998,"<12","2014-05-10","2014-05-22","2014-11-20",12,"2014-11-20","COMPLETED","Completed",20],["CDISCPILOT01","01-701-1324","1324","701","701","Xanomeline Low Dose","Xanomeline Low Dose",54,"Xanomeline Low Dose",54,"2012-10-02","2013-04-02",183,54,9882,79,"65-80",2,"YEARS","WHITE",1,"M","NOT HISPANIC OR LATINO","Y","Y","Y","Y","Y","Y",null,null,null,27.800000000000001,"25-<30",166.40000000000001,77.099999999999994,18,"2009-10-11",35.200000000000003,">=12","2012-09-16","2012-10-02","2013-04-02",12,"2013-04-02","COMPLETED","Completed",23],["CDISCPILOT01","01-701-1341","1341","701","701","Xanomeline Low Dose","Xanomeline Low Dose",54,"Xanomeline Low Dose",54,"2013-01-05","2013-01-26",22,54,1188,51,"<65",1,"YEARS","WHITE",1,"M","NOT HISPANIC OR LATINO","Y","Y","Y","N","N","N","Y","Y",null,28.5,"25-<30",157.5,70.799999999999997,24,"2006-06-05",78.599999999999994,">=12","2012-12-22","2013-01-05","2013-02-07",5,"2013-02-07","ADVERSE EVENT","Adverse Event",23],["CDISCPILOT01","01-701-1345","1345","701","701","Placebo","Placebo",0,"Placebo",0,"2013-10-08","2014-03-18",162,0,0,63,"<65",1,"YEARS","WHITE",1,"F","NOT HISPANIC OR LATINO","Y","Y","Y","Y","Y","Y","Y",null,null,18.600000000000001,"<25",174,56.299999999999997,15,"2010-11-05",34.899999999999999,">=12","2013-10-01","2013-10-08","2014-03-18",12,"2014-03-18","STUDY TERMINATED BY SPONSOR","Sponsor Decision",23],["CDISCPILOT01","01-701-1360","1360","701","701","Xanomeline High Dose","Xanomeline High Dose",81,"Xanomeline High Dose",81,"2013-07-31","2013-08-05",6,54,324,67,"65-80",2,"YEARS","WHITE",1,"M","NOT HISPANIC OR LATINO","Y","Y","Y","N","N","N","Y",null,null,29,"25-<30",166.40000000000001,80.299999999999997,10,"2008-12-02",55.700000000000003,">=12","2013-07-24","2013-07-31","2013-08-14",4,"2013-08-14","PHYSICIAN DECISION","Physician Decision",23],["CDISCPILOT01","01-701-1363","1363","701","701","Placebo","Placebo",0,"Placebo",0,"2013-05-30","2013-11-27",182,0,0,81,">80",3,"YEARS","BLACK OR AFRICAN AMERICAN",2,"F","NOT HISPANIC OR LATINO","Y","Y","Y","Y","Y","Y",null,null,null,24.899999999999999,"<25",161.30000000000001,64.900000000000006,13,"2005-10-20",91,">=12","2013-05-20","2013-05-30","2013-11-27",12,"2013-11-27","COMPLETED","Completed",22],["CDISCPILOT01","01-701-1383","1383","701","701","Xanomeline High Dose","Xanomeline High Dose",81,"Xanomeline High Dose",81,"2013-02-04","2013-08-06",184,77.599999999999994,14283,72,"65-80",2,"YEARS","WHITE",1,"F","NOT HISPANIC OR LATINO","Y","Y","Y","Y","Y","Y",null,null,null,31.600000000000001,">=30",163.80000000000001,84.799999999999997,12,"2006-08-20",77.099999999999994,">=12","2013-01-22","2013-02-04","2013-08-06",12,"2013-08-06","COMPLETED","Completed",22],["CDISCPILOT01","01-701-1387","1387","701","701","Placebo","Placebo",0,"Placebo",0,"2014-03-12","2014-03-25",14,0,0,87,">80",3,"YEARS","WHITE",1,"F","NOT HISPANIC OR LATINO","Y","Y","Y","N","N","N","Y",null,null,22.5,"<25",162.59999999999999,59.399999999999999,12,"2003-08-17",126.3,">=12","2014-02-23","2014-03-12","2014-03-25",4,"2014-03-25","PROTOCOL VIOLATION","Protocol Violation",11],["CDISCPILOT01","01-701-1392","1392","701","701","Placebo","Placebo",0,"Placebo",0,"2012-10-28","2013-04-28",183,0,0,78,"65-80",2,"YEARS","WHITE",1,"M","NOT HISPANIC OR LATINO","Y","Y","Y","Y","Y","Y",null,null,null,28.899999999999999,"25-<30",167.59999999999999,81.200000000000003,16,"2010-04-25",29.800000000000001,">=12","2012-10-17","2012-10-28","2013-04-28",12,"2013-04-28","COMPLETED","Completed",23],["CDISCPILOT01","01-701-1415","1415","701","701","Placebo","Placebo",0,"Placebo",0,"2013-09-23","2014-03-24",183,0,0,85,">80",3,"YEARS","WHITE",1,"M","NOT HISPANIC OR LATINO","Y","Y","Y","Y","Y","Y",null,null,null,25,"25-<30",175.30000000000001,76.700000000000003,10,"1998-06-13",183.09999999999999,">=12","2013-09-15","2013-09-23","2014-03-24",12,"2014-03-24","COMPLETED","Completed",18],["CDISCPILOT01","01-701-1429","1429","701","701","Xanomeline Low Dose","Xanomeline Low Dose",54,"Xanomeline Low Dose",54,"2013-03-19","2013-04-30",43,54,2322,84,">80",3,"YEARS","WHITE",1,"F","NOT HISPANIC OR LATINO","Y","Y","Y","N","N","N","Y",null,null,25.699999999999999,"25-<30",148.59999999999999,56.700000000000003,12,"2008-06-17",56.299999999999997,">=12","2013-02-25","2013-03-19","2013-04-30",7,"2013-04-30","WITHDRAWAL BY SUBJECT","Withdrew Consent",17],["CDISCPILOT01","01-701-1440","1440","701","701","Placebo","Placebo",0,"Placebo",0,"2013-08-08","2014-02-05",182,0,0,70,"65-80",2,"YEARS","WHITE",1,"M","NOT HISPANIC OR LATINO","Y","Y","Y","Y","Y","Y",null,null,null,20.199999999999999,"<25",156.19999999999999,49.399999999999999,18,"2011-04-07",27.600000000000001,">=12","2013-07-24","2013-08-08","2014-02-05",12,"2014-02-05","COMPLETED","Completed",22],["CDISCPILOT01","01-701-1442","1442","701","701","Xanomeline Low Dose","Xanomeline Low Dose",54,"Xanomeline Low Dose",54,"2013-10-26","2014-04-26",183,54,9882,57,"<65",1,"YEARS","BLACK OR AFRICAN AMERICAN",2,"F","NOT HISPANIC OR LATINO","Y","Y","Y","Y","Y","Y",null,null,null,40.100000000000001,">=30",162.59999999999999,106.09999999999999,12,"2006-02-20",91.900000000000006,">=12","2013-10-17","2013-10-26","2014-04-26",12,"2014-04-26","COMPLETED","Completed",15],["CDISCPILOT01","01-701-1444","1444","701","701","Xanomeline High Dose","Xanomeline High Dose",81,"Xanomeline High Dose",81,"2013-01-05","2013-02-12",39,71.299999999999997,2781,63,"<65",1,"YEARS","WHITE",1,"M","HISPANIC OR LATINO","Y","Y","Y","N","N","N","Y","Y",null,34.5,">=30",171.5,101.59999999999999,14,"2008-05-21",55.399999999999999,">=12","2012-12-31","2013-01-05","2013-02-13",7,"2013-02-13","ADVERSE EVENT","Adverse Event",23],["CDISCPILOT01","01-702-1082","1082","702","900","Xanomeline Low Dose","Xanomeline Low Dose",54,"Xanomeline Low Dose",54,"2013-07-26","2013-10-13",80,54,4320,84,">80",3,"YEARS","WHITE",1,"F","NOT HISPANIC OR LATINO","Y","Y","Y","Y","N","N","Y",null,null,null,"<25",154.90000000000001,null,18,"2007-05-17",73.599999999999994,">=12","2013-07-03","2013-07-26","2013-11-17",9,"2013-11-17","WITHDRAWAL BY SUBJECT","Withdrew Consent",23],["CDISCPILOT01","01-703-1042","1042","703","703","Placebo","Placebo",0,"Placebo",0,"2013-03-02","2013-08-31",183,0,0,64,"<65",1,"YEARS","WHITE",1,"M","NOT HISPANIC OR LATINO","Y","Y","Y","Y","Y","Y",null,null,null,23.5,"<25",177.80000000000001,74.400000000000006,12,"2008-07-23",55.100000000000001,">=12","2013-02-23","2013-03-02","2013-08-31",12,"2013-08-31","COMPLETED","Completed",23],["CDISCPILOT01","01-703-1076","1076","703","703","Xanomeline High Dose","Xanomeline High Dose",81,"Xanomeline High Dose",81,"2013-10-25","2013-12-24",61,75.200000000000003,4590,69,"65-80",2,"YEARS","WHITE",1,"M","NOT HISPANIC OR LATINO","Y","Y","Y","Y","N","N","Y","Y",null,32,">=30",165.09999999999999,87.099999999999994,10,"2012-08-27",13.699999999999999,">=12","2013-10-17","2013-10-25","2013-12-24",9,"2013-12-24","ADVERSE EVENT","Adverse Event",23],["CDISCPILOT01","01-703-1086","1086","703","703","Xanomeline Low Dose","Xanomeline Low Dose",54,"Xanomeline Low Dose",54,"2012-09-02","2012-12-04",94,54,5076,71,"65-80",2,"YEARS","WHITE",1,"M","NOT HISPANIC OR LATINO","Y","Y","Y","Y","Y","N","Y","Y",null,25,"25-<30",195.59999999999999,95.700000000000003,17,"2011-04-27",15.9,">=12","2012-08-22","2012-09-02","2012-12-24",10,"2012-12-24","ADVERSE EVENT","Adverse Event",17],["CDISCPILOT01","01-703-1096","1096","703","703","Placebo","Placebo",0,"Placebo",0,"2013-01-25","2013-03-16",51,0,0,81,">80",3,"YEARS","WHITE",1,"F","NOT HISPANIC OR LATINO","Y","Y","N","N","N","N","Y",null,null,31.699999999999999,">=30",160,81.200000000000003,6,"2006-12-20",72,">=12","2012-12-19","2013-01-25","2013-03-29",7,"2013-03-29","LOST TO FOLLOW-UP","Lost to Follow-up",22],["CDISCPILOT01","01-703-1100","1100","703","703","Placebo","Placebo",0,"Placebo",0,"2013-03-13","2013-09-14",186,0,0,84,">80",3,"YEARS","WHITE",1,"F","NOT HISPANIC OR LATINO","Y","Y","Y","Y","Y","Y",null,null,null,21.800000000000001,"<25",167.59999999999999,61.200000000000003,8,"2010-12-02",26.899999999999999,">=12","2013-02-28","2013-03-13","2013-09-14",12,"2013-09-14","COMPLETED","Completed",22],["CDISCPILOT01","01-703-1119","1119","703","703","Xanomeline Low Dose","Xanomeline Low Dose",54,"Xanomeline Low Dose",54,"2013-02-20","2013-06-13",114,54,6156,81,">80",3,"YEARS","WHITE",1,"F","NOT HISPANIC OR LATINO","Y","Y","Y","Y","Y","N","Y","Y",null,18.399999999999999,"<25",160,47.200000000000003,16,"2005-02-01",96.099999999999994,">=12","2013-02-02","2013-02-20","2013-06-13",10,"2013-06-13","ADVERSE EVENT","Adverse Event",14],["CDISCPILOT01","01-703-1175","1175","703","703","Placebo","Placebo",0,"Placebo",0,"2013-12-20","2013-12-26",7,0,0,75,"65-80",2,"YEARS","WHITE",1,"M","NOT HISPANIC OR LATINO","Y","Y","Y","N","N","N","Y",null,null,26.600000000000001,"25-<30",170.19999999999999,77.099999999999994,16,"2010-09-19",38.799999999999997,">=12","2013-12-13","2013-12-20","2013-12-31",4,"2013-12-31","PROTOCOL VIOLATION","I/E Not Met",11],["CDISCPILOT01","01-703-1182","1182","703","703","Xanomeline Low Dose","Xanomeline Low Dose",54,"Xanomeline Low Dose",54,"2013-10-17","2013-12-11",56,54,3024,84,">80",3,"YEARS","WHITE",1,"M","NOT HISPANIC OR LATINO","Y","Y","Y","Y","N","N","Y","Y",null,22.800000000000001,"<25",172.69999999999999,68,12,"2011-09-27",24.399999999999999,">=12","2013-10-08","2013-10-17","2013-12-12",8,"2013-12-12","ADVERSE EVENT","Adverse Event",22],["CDISCPILOT01","01-703-1197","1197","703","703","Xanomeline Low Dose","Xanomeline Low Dose",54,"Xanomeline Low Dose",54,"2013-06-16","2013-06-29",14,54,756,76,"65-80",2,"YEARS","BLACK OR AFRICAN AMERICAN",2,"F","NOT HISPANIC OR LATINO","Y","Y","Y","N","N","N","Y",null,null,38.600000000000001,">=30",162.59999999999999,102.09999999999999,5,"2012-01-11",16.699999999999999,">=12","2013-06-01","2013-06-16","2013-07-22",4,"2013-07-22","WITHDRAWAL BY SUBJECT","Withdrew Consent",12],["CDISCPILOT01","01-703-1210","1210","703","703","Placebo","Placebo",0,"Placebo",0,"2013-03-16","2013-09-06",175,0,0,72,"65-80",2,"YEARS","WHITE",1,"F","NOT HISPANIC OR LATINO","Y","Y","Y","Y","Y","Y",null,null,null,23.800000000000001,"<25",144.80000000000001,49.899999999999999,12,"2010-02-18",36.600000000000001,">=12","2013-03-08","2013-03-16","2013-09-06",12,"2013-09-06","COMPLETED","Completed",19],["CDISCPILOT01","01-703-1258","1258","703","703","Xanomeline High Dose","Xanomeline High Dose",81,"Xanomeline High Dose",81,"2012-07-20","2013-01-11",176,77.299999999999997,13608,78,"65-80",2,"YEARS","WHITE",1,"F","NOT HISPANIC OR LATINO","Y","Y","Y","Y","Y","Y","Y","Y",null,24.800000000000001,"<25",154.90000000000001,59.399999999999999,12,"2006-02-17",76.700000000000003,">=12","2012-07-10","2012-07-20","2013-01-21",12,"2013-01-21","ADVERSE EVENT","Adverse Event",13],["CDISCPILOT01","01-703-1279","1279","703","703","Xanomeline Low Dose","Xanomeline Low Dose",54,"Xanomeline Low Dose",54,"2013-05-13","2013-06-03",22,54,1188,72,"65-80",2,"YEARS","WHITE",1,"F","NOT HISPANIC OR LATINO","Y","Y","N","N","N","N","Y",null,null,21.100000000000001,"<25",162.59999999999999,55.799999999999997,12,"2010-07-29",33,">=12","2013-04-27","2013-05-13","2013-06-22",4,"2013-06-22","WITHDRAWAL BY SUBJECT","Withdrew Consent",14],["CDISCPILOT01","01-703-1295","1295","703","703","Xanomeline High Dose","Xanomeline High Dose",81,"Xanomeline High Dose",81,"2013-11-21","2014-04-19",150,78.299999999999997,11745,88,">80",3,"YEARS","WHITE",1,"F","NOT HISPANIC OR LATINO","Y","Y","Y","Y","Y","N","Y",null,null,22.699999999999999,"<25",157.5,56.299999999999997,8,"2012-04-05",18.699999999999999,">=12","2013-10-24","2013-11-21","2014-05-19",11,"2014-05-19","WITHDRAWAL BY SUBJECT","Withdrew Consent",20],["CDISCPILOT01","01-703-1299","1299","703","703","Placebo","Placebo",0,"Placebo",0,"2012-09-12","2013-03-13",183,0,0,81,">80",3,"YEARS","WHITE",1,"F","NOT HISPANIC OR LATINO","Y","Y","Y","Y","Y","Y",null,null,null,19.199999999999999,"<25",153.69999999999999,45.399999999999999,12,"2011-09-16",11.800000000000001,"<12","2012-09-07","2012-09-12","2013-03-13",12,"2013-03-13","COMPLETED","Completed",23],["CDISCPILOT01","01-703-1335","1335","703","703","Xanomeline High Dose","Xanomeline High Dose",81,"Xanomeline High Dose",81,"2014-03-17","2014-05-07",52,73.200000000000003,3807,67,"65-80",2,"YEARS","BLACK OR AFRICAN AMERICAN",2,"F","NOT HISPANIC OR LATINO","Y","Y","Y","N","N","N","Y",null,null,23,"<25",154.90000000000001,55.299999999999997,11,"2008-01-30",73,">=12","2014-02-28","2014-03-17","2014-05-24",7,"2014-05-24","PROTOCOL VIOLATION","Protocol Violation",10],["CDISCPILOT01","01-703-1379","1379","703","703","Xanomeline Low Dose","Xanomeline Low Dose",54,"Xanomeline Low Dose",54,"2013-09-22","2014-03-21",181,54,9774,81,">80",3,"YEARS","BLACK OR AFRICAN AMERICAN",2,"F","NOT HISPANIC OR LATINO","Y","Y","Y","Y","Y","Y",null,null,null,30.699999999999999,">=30",157.5,76.200000000000003,7,"2009-09-21",47.700000000000003,">=12","2013-09-12","2013-09-22","2014-03-21",12,"2014-03-21","COMPLETED","Completed",12],["CDISCPILOT01","01-703-1403","1403","703","703","Xanomeline High Dose","Xanomeline High Dose",81,"Xanomeline High Dose",81,"2012-12-12","2012-12-13",2,54,108,67,"65-80",2,"YEARS","WHITE",1,"M","NOT HISPANIC OR LATINO","Y","Y","N","N","N","N","Y","Y",null,25.399999999999999,"25-<30",177.80000000000001,80.299999999999997,12,"2010-12-07",24,">=12","2012-12-05","2012-12-12","2012-12-19",4,"2012-12-19","ADVERSE EVENT","Adverse Event",23],["CDISCPILOT01","01-703-1439","1439","703","703","Xanomeline High Dose","Xanomeline High Dose",81,"Xanomeline High Dose",81,"2014-03-12","2014-09-11",184,76.700000000000003,14121,76,"65-80",2,"YEARS","WHITE",1,"F","NOT HISPANIC OR LATINO","Y","Y","Y","Y","Y","Y",null,null,null,24.800000000000001,"<25",160,63.5,12,"2010-07-29",43.200000000000003,">=12","2014-03-04","2014-03-12","2014-09-11",12,"2014-09-11","COMPLETED","Completed",16]]}