{"datasetJSONCreationDateTime":"2024-01-15T10:30:00","datasetJSONVersion":"1.1.0","itemGroupOID":"IG.DM","name":"DM","label":"Demographics","records":60,"columns":[{"itemOID":"IT.DM.STUDYID","name":"STUDYID","label":"Study Identifier","dataType":"string","length":12},{"itemOID":"IT.DM.DOMAIN","name":"DOMAIN","label":"Domain Abbreviation","dataType":"string","length":2},{"itemOID":"IT.DM.USUBJID","name":"USUBJID","label":"Unique Subject Identifier","dataType":"string","length":11},{"itemOID":"IT.DM.SUBJID","name":"SUBJID","label":"Subject Identifier for the Study","dataType":"string","length":4},{"itemOID":"IT.DM.RFSTDTC","name":"RFSTDTC","label":"Subject Reference Start Date/Time","dataType":"string","length":10},{"itemOID":"IT.DM.RFENDTC","name":"RFENDTC","label":"Subject Reference End Date/Time","dataType":"string","length":10},{"itemOID":"IT.DM.RFXSTDTC","name":"RFXSTDTC","label":"Date/Time of First Study Treatment","dataType":"string","length":10},{"itemOID":"IT.DM.RFXENDTC","name":"RFXENDTC","label":"Date/Time of Last Study Treatment","dataType":"string","length":10},{"itemOID":"IT.DM.RFICDTC","name":"RFICDTC","label":"Date/Time of Informed Consent","dataType":"string","length":1},{"itemOID":"IT.DM.RFPENDTC","name":"RFPENDTC","label":"Date/Time of End of Participation","dataType":"string","length":16},{"itemOID":"IT.DM.DTHDTC","name":"DTHDTC","label":"Date/Time of Death","dataType":"string","length":10},{"itemOID":"IT.DM.DTHFL","name":"DTHFL","label":"Subject Death Flag","dataType":"string","length":1},{"itemOID":"IT.DM.SITEID","name":"SITEID","label":"Study Site Identifier","dataType":"string","length":3},{"itemOID":"IT.DM.AGE","name":"AGE","label":"Age","dataType":"float","length":8},{"itemOID":"IT.DM.AGEU","name":"AGEU","label":"Age Units","dataType":"string","length":5},{"itemOID":"IT.DM.SEX","name":"SEX","label":"Sex","dataType":"string","length":1,"codelist":"C66731"},{"itemOID":"IT.DM.RACE","name":"RACE","label":"Race","dataType":"string","length":32},{"itemOID":"IT.DM.ETHNIC","name":"ETHNIC","label":"Ethnicity","dataType":"string","length":22},{"itemOID":"IT.DM.ARMCD","name":"ARMCD","label":"Planned Arm Code","dataType":"string","length":8},{"itemOID":"IT.DM.ARM","name":"ARM","label":"Description of Planned Arm","dataType":"string","length":20},{"itemOID":"IT.DM.ACTARMCD","name":"ACTARMCD","label":"Actual Arm Code","dataType":"string","length":8},{"itemOID":"IT.DM.ACTARM","name":"ACTARM","label":"Description of Actual Arm","dataType":"string","length":20},{"itemOID":"IT.DM.COUNTRY","name":"COUNTRY","label":"Country","dataType":"string","length":3},{"itemOID":"IT.DM.DMDTC","name":"DMDTC","label":"Date/Time of Collection","dataType":"string","length":10},{"itemOID":"IT.DM.DMDY","name":"DMDY","label":"Study Day of Collection","dataType":"float","length":8}],"rows":[["CDISCPILOT01","DM","01-701-1015","1015","2014-01-02","2014-07-02","2014-01-02","2014-07-02",null,"2014-07-02T11:45",null,null,"701",63,"YEARS","F","WHITE","HISPANIC OR LATINO","Pbo","Placebo","Pbo","Placebo","USA","2013-12-26",-7],["CDISCPILOT01","DM","01-701-1023","1023","2012-08-05","2012-09-02","2012-08-05","2012-09-01",null,"2013-02-18",null,null,"701",64,"YEARS","M","WHITE","HISPANIC OR LATINO","Pbo","Placebo","Pbo","Placebo","USA","2012-07-22",-14],["CDISCPILOT01","DM","01-701-1028","1028","2013-07-19","2014-01-14","2013-07-19","2014-01-14",null,"2014-01-14T11:10",null,null,"701",71,"YEARS","M","WHITE","NOT HISPANIC OR LATINO","Xan_Hi","Xanomeline High Dose","Xan_Hi","Xanomeline High Dose","USA","2013-07-11",-8],["CDISCPILOT01","DM","01-701-1033","1033","2014-03-18","2014-04-14","2014-03-18","2014-03-31",null,"2014-09-15",null,null,"701",74,"YEARS","M","WHITE","NOT HISPANIC OR LATINO","Xan_Lo","Xanomeline Low Dose","Xan_Lo","Xanomeline Low Dose","USA","2014-03-10",-8],["CDISCPILOT01","DM","01-701-1034","1034","2014-07-01","2014-12-30","2014-07-01","2014-12-30",null,"2014-12-30T09:50",null,null,"701",77,"YEARS","F","WHITE","NOT HISPANIC OR LATINO","Xan_Hi","Xanomeline High Dose","Xan_Hi","Xanomeline High Dose","USA","2014-06-24",-7],["CDISCPILOT01","DM","01-701-1047","1047","2013-02-12","2013-03-29","2013-02-12","2013-03-09",null,"2013-07-28",null,null,"701",85,"YEARS","F","WHITE","NOT HISPANIC OR LATINO","Pbo","Placebo","Pbo","Placebo","USA","2013-01-22",-21],["CDISCPILOT01","DM","01-701-1057","1057",null,null,null,null,null,"2013-12-27",null,null,"701",59,"YEARS","F","WHITE","HISPANIC OR LATINO","Scrnfail","Screen Failure","Scrnfail","Screen Failure","USA","2013-12-20",null],["CDISCPILOT01","DM","01-701-1097","1097","2014-01-01","2014-07-09","2014-01-01","2014-07-09",null,"2014-07-09T09:39",null,null,"701",68,"YEARS","M","WHITE","NOT HISPANIC OR LATINO","Xan_Lo","Xanomeline Low Dose","Xan_Lo","Xanomeline Low Dose","USA","2013-12-23",-9],["CDISCPILOT01","DM","01-701-1111","1111","2012-09-07","2012-09-17","2012-09-07","2012-09-16",null,"2013-02-22",null,null,"701",81,"YEARS","F","WHITE","NOT HISPANIC OR LATINO","Xan_Lo","Xanomeline Low Dose","Xan_Lo","Xanomeline Low Dose","USA","2012-08-25",-13],["CDISCPILOT01","DM","01-701-1115","1115","2012-11-30","2013-01-23","2012-11-30","2013-01-23",null,"2013-05-20",null,null,"701",84,"YEARS","M","WHITE","NOT HISPANIC OR LATINO","Xan_Lo","Xanomeline Low Dose","Xan_Lo","Xanomeline Low Dose","USA","2012-11-23",-7],["CDISCPILOT01","DM","01-701-1118","1118","2014-03-12","2014-09-09","2014-03-12","2014-09-09",null,"2014-09-09T13:28",null,null,"701",52,"YEARS","M","WHITE","NOT HISPANIC OR LATINO","Pbo","Placebo","Pbo","Placebo","USA","2014-02-27",-13],["CDISCPILOT01","DM","01-701-1130","1130","2014-02-15","2014-08-16","2014-02-15","2014-08-16",null,"2014-08-16T13:10",null,null,"701",84,"YEARS","M","WHITE","NOT HISPANIC OR LATINO","Pbo","Placebo","Pbo","Placebo","USA","2014-02-09",-6],["CDISCPILOT01","DM","01-701-1133","1133","2012-10-28","2013-04-29","2012-10-28","2013-04-28",null,"2013-04-29T10:13",null,null,"701",81,"YEARS","F","WHITE","NOT HISPANIC OR LATINO","Xan_Hi","Xanomeline High Dose","Xan_Hi","Xanomeline High Dose","USA","2012-10-23",-5],["CDISCPILOT01","DM","01-701-1145","1145",null,null,null,null,null,"2013-09-19",null,null,"701",57,"YEARS","F","WHITE","NOT HISPANIC OR LATINO","Scrnfail","Screen Failure","Scrnfail","Screen Failure","USA","2013-09-05",null],["CDISCPILOT01","DM","01-701-1146","1146","2013-05-20","2013-06-30","2013-05-20","2013-06-26",null,"2013-07-15",null,null,"701",75,"YEARS","F","WHITE","NOT HISPANIC OR LATINO","Xan_Hi","Xanomeline High Dose","Xan_Hi","Xanomeline High Dose","USA","2013-05-07",-13],["CDISCPILOT01","DM","01-701-1148","1148","2013-08-23","2014-02-20","2013-08-23","2014-02-20",null,"2014-02-20T15:07",null,null,"701",57,"YEARS","M","WHITE","NOT HISPANIC OR LATINO","Xan_Hi","Xanomeline High Dose","Xan_Hi","Xanomeline High Dose","USA","2013-08-14",-9],["CDISCPILOT01","DM","01-701-1153","1153","2013-09-23","2014-04-01","2013-09-23","2014-03-16",null,"2014-04-01T14:25",null,null,"701",79,"YEARS","F","WHITE","NOT HISPANIC OR LATINO","Pbo","Placebo","Pbo","Placebo","USA","2013-09-06",-17],["CDISCPILOT01","DM","01-701-1162","1162",null,null,null,null,null,"2013-04-18",null,null,"701",82,"YEARS","F","WHITE","NOT HISPANIC OR LATINO","Scrnfail","Screen Failure","Scrnfail","Screen Failure","USA","2013-04-18",null],["CDISCPILOT01","DM","01-701-1176","1176",null,null,null,null,null,"2012-09-30",null,null,"701",62,"YEARS","F","AMERICAN INDIAN OR ALASKA NATIVE","NOT HISPANIC OR LATINO","Scrnfail","Screen Failure","Scrnfail","Screen Failure","USA","2012-09-30",null],["CDISCPILOT01","DM","01-701-1180","1180","2013-02-12","2013-03-23","2013-02-12","2013-03-18",null,"2013-04-07",null,null,"701",56,"YEARS","M","WHITE","NOT HISPANIC OR LATINO","Xan_Hi","Xanomeline High Dose","Xan_Hi","Xanomeline High Dose","USA","2013-01-28",-15],["CDISCPILOT01","DM","01-701-1181","1181","2013-12-05","2013-12-12","2013-12-05","2013-12-09",null,"2014-05-23",null,null,"701",79,"YEARS","F","WHITE","NOT HISPANIC OR LATINO","Xan_Hi","Xanomeline High Dose","Xan_Lo","Xanomeline Low Dose","USA","2013-11-26",-9],["CDISCPILOT01","DM","01-701-1188","1188","2013-02-15","2013-03-25","2013-02-15","2013-03-24",null,"2013-08-04",null,null,"701",71,"YEARS","M","WHITE","NOT HISPANIC OR LATINO","Xan_Lo","Xanomeline Low Dose","Xan_Lo","Xanomeline Low Dose","USA","2013-02-03",-12],["CDISCPILOT01","DM","01-701-1192","1192","2012-07-22","2013-01-20","2012-07-22","2013-01-20",null,"2013-01-20T15:47",null,null,"701",80,"YEARS","F","WHITE","NOT HISPANIC OR LATINO","Xan_Lo","Xanomeline Low Dose","Xan_Lo","Xanomeline Low Dose","USA","2012-07-08",-14],["CDISCPILOT01","DM","01-701-1203","1203","2013-02-02","2013-08-03","2013-02-02","2013-08-03",null,"2013-08-03T10:10",null,null,"701",81,"YEARS","F","BLACK OR AFRICAN AMERICAN","NOT HISPANIC OR LATINO","Pbo","Placebo","Pbo","Placebo","USA","2013-01-25",-8],["CDISCPILOT01","DM","01-701-1211","1211","2012-11-15","2013-01-14","2012-11-15","2013-01-12",null,"2013-01-14","2013-01-14","Y","701",76,"YEARS","F","WHITE","NOT HISPANIC OR LATINO","Xan_Lo","Xanomeline Low Dose","Xan_Lo","Xanomeline Low Dose","USA","2012-10-30",-16],["CDISCPILOT01","DM","01-701-1234","1234","2013-03-30","2013-09-22","2013-03-30","2013-09-22",null,"2013-09-22T09:25",null,null,"701",69,"YEARS","M","WHITE","NOT HISPANIC OR LATINO","Pbo","Placebo","Pbo","Placebo","USA","2013-03-20",-10],["CDISCPILOT01","DM","01-701-1239","1239","2014-01-11","2014-07-11","2014-01-11","2014-07-10",null,"2014-07-11T15:40",null,null,"701",56,"YEARS","M","WHITE","HISPANIC OR LATINO","Xan_Hi","Xanomeline High Dose","Xan_Hi","Xanomeline High Dose","USA","2013-12-28",-14],["CDISCPILOT01","DM","01-701-1240","1240",null,null,null,null,null,"2013-09-24",null,null,"701",57,"YEARS","F","BLACK OR AFRICAN AMERICAN","NOT HISPANIC OR LATINO","Scrnfail","Screen Failure","Scrnfail","Screen Failure","USA","2013-09-22",null],["CDISCPILOT01","DM","01-701-1275","1275","2014-02-07","2014-06-14","2014-02-07","2014-05-31",null,"2014-06-14T12:35",null,null,"701",61,"YEARS","M","AMERICAN INDIAN OR ALASKA NATIVE","NOT HISPANIC OR LATINO","Xan_Hi","Xanomeline High Dose","Xan_Hi","Xanomeline High Dose","USA","2014-01-25",-13],["CDISCPILOT01","DM","01-701-1287","1287","2014-01-25","2014-07-26","2014-01-25","2014-07-26",null,"2014-07-26T13:15",null,null,"701",56,"YEARS","F","WHITE","HISPANIC OR LATINO","Xan_Hi","Xanomeline High Dose","Xan_Hi","Xanomeline High Dose","USA","2014-01-17",-8],["CDISCPILOT01","DM","01-701-1294","1294","2013-03-24","2013-06-14","2013-03-24","2013-06-14",null,"2013-10-08",null,null,"701",67,"YEARS","M","WHITE","NOT HISPANIC OR LATINO","Xan_Lo","Xanomeline Low Dose","Xan_Lo","Xanomeline Low Dose","USA","2013-03-17",-7],["CDISCPILOT01","DM","01-701-1302","1302","2013-08-29","2013-11-05","2013-08-29","2013-11-05",null,"2014-02-13",null,null,"701",61,"YEARS","M","WHITE","NOT HISPANIC OR LATINO","Xan_Hi","Xanomeline High Dose","Xan_Hi","Xanomeline High Dose","USA","2013-08-20",-9],["CDISCPILOT01","DM","01-701-1307","1307",null,null,null,null,null,"2014-01-02",null,null,"701",80,"YEARS","F","WHITE","NOT HISPANIC OR LATINO","Scrnfail","Screen Failure","Scrnfail","Screen Failure","USA","2013-12-08",null],["CDISCPILOT01","DM","01-701-1317","1317","2014-05-22","2014-11-20","2014-05-22","2014-11-20",null,"2014-11-20T11:54",null,null,"701",68,"YEARS","M","WHITE","NOT HISPANIC OR LATINO","Xan_Lo","Xanomeline Low Dose","Xan_Lo","Xanomeline Low Dose","USA","2014-05-10",-12],["CDISCPILOT01","DM","01-701-1324","1324","2012-10-02","2013-04-02","2012-10-02","2013-04-02",null,"2013-04-02T11:35",null,null,"701",79,"YEARS","M","WHITE","NOT HISPANIC OR LATINO","Xan_Lo","Xanomeline Low Dose","Xan_Lo","Xanomeline Low Dose","USA","2012-09-16",-16],["CDISCPILOT01","DM","01-701-1341","1341","2013-01-05","2013-02-07","2013-01-05","2013-01-26",null,"2013-02-21",null,null,"701",51,"YEARS","M","WHITE","NOT HISPANIC OR LATINO","Xan_Lo","Xanomeline Low Dose","Xan_Lo","Xanomeline Low Dose","USA","2012-12-22",-14],["CDISCPILOT01","DM","01-701-1345","1345","2013-10-08","2014-03-18","2013-10-08","2014-03-18",null,"2014-03-18T14:12",null,null,"701",63,"YEARS","F","WHITE","NOT HISPANIC OR LATINO","Pbo","Placebo","Pbo","Placebo","USA","2013-10-01",-7],["CDISCPILOT01","DM","01-701-1356","1356",null,null,null,null,null,"2014-05-28",null,null,"701",54,"YEARS","F","WHITE","HISPANIC OR LATINO","Scrnfail","Screen Failure","Scrnfail","Screen Failure","USA","2014-04-01",null],["CDISCPILOT01","DM","01-701-1360","1360","2013-07-31","2013-08-14","2013-07-31","2013-08-05",null,"2014-02-11",null,null,"701",67,"YEARS","M","WHITE","NOT HISPANIC OR LATINO","Xan_Hi","Xanomeline High Dose","Xan_Lo","Xanomeline Low Dose","USA","2013-07-24",-7],["CDISCPILOT01","DM","01-701-1363","1363","2013-05-30","2013-11-27","2013-05-30","2013-11-27",null,"2013-11-27T10:00",null,null,"701",81,"YEARS","F","BLACK OR AFRICAN AMERICAN","NOT HISPANIC OR LATINO","Pbo","Placebo","Pbo","Placebo","USA","2013-05-20",-10],["CDISCPILOT01","DM","01-701-1369","1369",null,null,null,null,null,"2013-09-30",null,null,"701",74,"YEARS","M","WHITE","NOT HISPANIC OR LATINO","Scrnfail","Screen Failure","Scrnfail","Screen Failure","USA","2013-09-18",null],["CDISCPILOT01","DM","01-701-1383","1383","2013-02-04","2013-08-06","2013-02-04","2013-08-06",null,"2013-08-06T12:00",null,null,"701",72,"YEARS","F","WHITE","NOT HISPANIC OR LATINO","Xan_Hi","Xanomeline High Dose","Xan_Hi","Xanomeline High Dose","USA","2013-01-22",-13],["CDISCPILOT01","DM","01-701-1386","1386",null,null,null,null,null,"2014-01-07",null,null,"701",71,"YEARS","M","WHITE","NOT HISPANIC OR LATINO","Scrnfail","Screen Failure","Scrnfail","Screen Failure","USA","2013-12-28",null],["CDISCPILOT01","DM","01-701-1387","1387","2014-03-12","2014-03-25","2014-03-12","2014-03-25",null,"2014-08-27",null,null,"701",87,"YEARS","F","WHITE","NOT HISPANIC OR LATINO","Pbo","Placebo","Pbo","Placebo","USA","2014-02-23",-17],["CDISCPILOT01","DM","01-701-1392","1392","2012-10-28","2013-04-28","2012-10-28","2013-04-28",null,"2013-04-28T11:30",null,null,"701",78,"YEARS","M","WHITE","NOT HISPANIC OR LATINO","Pbo","Placebo","Pbo","Placebo","USA","2012-10-17",-11],["CDISCPILOT01","DM","01-701-1411","1411",null,null,null,null,null,"2012-11-24",null,null,"701",76,"YEARS","M","BLACK OR AFRICAN AMERICAN","NOT HISPANIC OR LATINO","Scrnfail","Screen Failure","Scrnfail","Screen Failure","USA","2012-11-14",null],["CDISCPILOT01","DM","01-701-1415","1415","2013-09-23","2014-03-24","2013-09-23","2014-03-24",null,"2014-03-24T12:34",null,null,"701",85,"YEARS","M","WHITE","NOT HISPANIC OR LATINO","Pbo","Placebo","Pbo","Placebo","USA","2013-09-15",-8],["CDISCPILOT01","DM","01-701-1429","1429","2013-03-19","2013-04-30","2013-03-19","2013-04-30",null,"2013-04-30T12:22",null,null,"701",84,"YEARS","F","WHITE","NOT HISPANIC OR LATINO","Xan_Lo","Xanomeline Low Dose","Xan_Lo","Xanomeline Low Dose","USA","2013-02-25",-22],["CDISCPILOT01","DM","01-701-1440","1440","2013-08-08","2014-02-05","2013-08-08","2014-02-05",null,"2014-02-05T11:25",null,null,"701",70,"YEARS","M","WHITE","NOT HISPANIC OR LATINO","Pbo","Placebo","Pbo","Placebo","USA","2013-07-24",-15],["CDISCPILOT01","DM","01-701-1442","1442","2013-10-26","2014-04-26","2013-10-26","2014-04-26",null,"2014-04-26T10:00",null,null,"701",57,"YEARS","F","BLACK OR AFRICAN AMERICAN","NOT HISPANIC OR LATINO","Xan_Lo","Xanomeline Low Dose","Xan_Lo","Xanomeline Low Dose","USA","2013-10-17",-9],["CDISCPILOT01","DM","01-701-1444","1444","2013-01-05","2013-02-13","2013-01-05","2013-02-12",null,"2013-06-20",null,null,"701",63,"YEARS","M","WHITE","HISPANIC OR LATINO","Xan_Hi","Xanomeline High Dose","Xan_Hi","Xanomeline High Dose","USA","2012-12-31",-5],["CDISCPILOT01","DM","01-702-1082","1082","2013-07-26","2013-11-17","2013-07-26","2013-10-13",null,"2013-11-17T12:20",null,null,"702",84,"YEARS","F","WHITE","NOT HISPANIC OR LATINO","Xan_Lo","Xanomeline Low Dose","Xan_Lo","Xanomeline Low Dose","USA","2013-07-03",-23],["CDISCPILOT01","DM","01-703-1042","1042","2013-03-02","2013-08-31","2013-03-02","2013-08-31",null,"2013-08-31T11:00",null,null,"703",64,"YEARS","M","WHITE","NOT HISPANIC OR LATINO","Pbo","Placebo","Pbo","Placebo","USA","2013-02-23",-7],["CDISCPILOT01","DM","01-703-1076","1076","2013-10-25","2013-12-24","2013-10-25","2013-12-24",null,"2014-01-21",null,null,"703",69,"YEARS","M","WHITE","NOT HISPANIC OR LATINO","Xan_Hi","Xanomeline High Dose","Xan_Hi","Xanomeline High Dose","USA","2013-10-17",-8],["CDISCPILOT01","DM","01-703-1086","1086","2012-09-02","2012-12-24","2012-09-02","2012-12-04",null,"2013-03-26",null,null,"703",71,"YEARS","M","WHITE","NOT HISPANIC OR LATINO","Xan_Lo","Xanomeline Low Dose","Xan_Lo","Xanomeline Low Dose","USA","2012-08-22",-11],["CDISCPILOT01","DM","01-703-1096","1096","2013-01-25","2013-03-29","2013-01-25","2013-03-16",null,"2013-03-29",null,null,"703",81,"YEARS","F","WHITE","NOT HISPANIC OR LATINO","Pbo","Placebo","Pbo","Placebo","USA","2012-12-19",-37],["CDISCPILOT01","DM","01-703-1100","1100","2013-03-13","2013-09-14","2013-03-13","2013-09-14",null,"2013-09-14T15:00",null,null,"703",84,"YEARS","F","WHITE","NOT HISPANIC OR LATINO","Pbo","Placebo","Pbo","Placebo","USA","2013-02-28",-13],["CDISCPILOT01","DM","01-703-1119","1119","2013-02-20","2013-06-13","2013-02-20","2013-06-13",null,"2013-08-24",null,null,"703",81,"YEARS","F","WHITE","NOT HISPANIC OR LATINO","Xan_Lo","Xanomeline Low Dose","Xan_Lo","Xanomeline Low Dose","USA","2013-02-02",-18],["CDISCPILOT01","DM","01-703-1175","1175","2013-12-20","2013-12-31","2013-12-20","2013-12-26",null,"2013-12-31T13:15",null,null,"703",75,"YEARS","M","WHITE","NOT HISPANIC OR LATINO","Pbo","Placebo","Pbo","Placebo","USA","2013-12-13",-7],["CDISCPILOT01","DM","01-703-1182","1182","2013-10-17","2013-12-12","2013-10-17","2013-12-11",null,"2014-01-14",null,null,"703",84,"YEARS","M","WHITE","NOT HISPANIC OR LATINO","Xan_Lo","Xanomeline Low Dose","Xan_Lo","Xanomeline Low Dose","USA","2013-10-08",-9]]}